Folder: HXN_GUI/Analysis

File: marked.nor
# XDI/1.0 Demeter/0.9.26
# Demeter.output_filetype: multicolumn normalized mu(E)
# Element.symbol: Fe
# Element.edge: K
# Column.1: energy eV
# Column.2: FE_FOIL_END_038_I2.avg
# Column.3: FE_FOILCAL_030_I2.avg
# Column.4: Fe_foilCal_007_Mar_17.avg
# Column.5: Fe_Pyrite_NMNH_tr_2sc_2_15.avg
#------------------------
#  energy  FE_FOIL_END_038_I2.avg  FE_FOILCAL_030_I2.avg  Fe_foilCal_007_Mar_17.avg  Fe_Pyrite_NMNH_tr_2sc_2_15.avg
  7100      -0.17865       0.147479       0.00375018   0.0067952
  7100.5      -0.161477       0.132872       0.00221806   0.00713228
  7101      -0.144294       0.118294       0.00137982   0.0061495
  7101.5      -0.127138       0.103714      -0.000229627   0.0059748
  7102      -0.11008       0.0891732   0.000630246   0.00658938
  7102.5      -0.0930119   0.0746683   0.00111288   0.00682776
  7103      -0.0759978   0.0602078  -0.00117268   0.00740508
  7103.5      -0.0590442   0.0458281  -0.000777833   0.00811677
  7104      -0.0421686   0.0314721  -0.000695435   0.00865851
  7104.5      -0.0253942   0.0172153  -0.000227435   0.00954187
  7105      -0.00866547   0.00301226  -0.00270632   0.00993489
  7105.5       0.00789834  -0.0110794  -0.00127901   0.0106863
  7106       0.0242914  -0.0250354   0.00048269   0.0112358
  7106.5       0.0405119  -0.0388374   0.00348271   0.012319
  7107       0.056485  -0.0524817   0.00439692   0.0133071
  7107.5       0.0720374  -0.0658126   0.00545534   0.0142983
  7108       0.0872252  -0.0788775   0.00704567   0.0153487
  7108.5       0.101787      -0.091491   0.0131086   0.0168267
  7109       0.115149      -0.103304       0.0183125   0.0179557
  7109.5       0.12684      -0.114129       0.0260599   0.0194665
  7110       0.135242      -0.123083       0.0379006   0.022203
  7110.5       0.135861      -0.127758       0.0613355   0.025624
  7111       0.122368      -0.124511       0.099046   0.030103
  7111.5       0.0908147  -0.106876       0.162815       0.0367369
  7112       0.0514042  -0.073663   0.236661       0.0505852
  7112.5       0.0241947  -0.0421887   0.30815       0.0738992
  7113       0.00818147  -0.0211817   0.367823       0.0999284
  7113.5      -0.0029636  -0.00745331   0.406103       0.119832
  7114      -0.00967981   0.000878895   0.440675       0.127046
  7114.5      -0.0134037   0.00731241   0.469489       0.127319
  7115      -0.0132302   0.0111904   0.496041       0.127948
  7115.5      -0.00705928   0.00936742   0.514781       0.125366
  7116       0.00351799   0.00263949   0.525561       0.124147
  7116.5       0.0159055  -0.00715041   0.535929       0.134464
  7117       0.0257355  -0.0166656   0.542476       0.164995
  7117.5       0.0284922  -0.0222184   0.556033       0.221768
  7118       0.0209482  -0.0196034   0.573866       0.318678
  7118.5       0.00348353  -0.00681437   0.60602       0.443324
  7119      -0.0164548   0.010621   0.63898       0.537984
  7119.5      -0.0382549   0.0304424   0.68086       0.608122
  7120      -0.062168   0.051977   0.717917       0.679422
  7120.5      -0.089592   0.0769608   0.752954       0.742752
  7121      -0.116166       0.101465       0.785062       0.776568
  7121.5      -0.14127       0.124654       0.81822       0.786668
  7122      -0.162072       0.144808       0.844575       0.783735
  7122.5      -0.179962       0.162061       0.868798       0.781937
  7123      -0.192917       0.174199       0.886061       0.789025
  7123.5      -0.202091       0.183203       0.903429       0.801308
  7124      -0.208514       0.189595       0.913335       0.812751
  7124.5      -0.213294       0.194696       0.925248       0.824688
  7125       -1.76789        1.19724       0.932866       0.839685
  7125.5       -1.76916        1.19883       0.942741       0.855356
  7126       -1.76989        1.20008       0.949388       0.868321
  7126.5       -1.77099        1.20137       0.954748       0.877703
  7127       -1.77431        1.20404       0.961332       0.887776
  7127.5       -1.77887        1.20731       0.968636       0.900899
  7128       -1.78593        1.21252       0.974384       0.913265
  7128.5       -1.79521        1.21966       0.984991       0.922405
  7129       -1.80641        1.22901       0.9924       0.931594
  7129.5       -1.81907        1.2404        1.00059       0.942405
  7130       -1.82916        1.24987        1.00997       0.954921
  7130.5       -1.83493        1.25673        1.01863       0.968304
  7131       -1.83309        1.25812        1.02358       0.981588
  7131.5       -1.82069        1.25226        1.02814       0.995083
  7132       -1.79696        1.2368        1.03156        1.00897
  7132.5       -1.76406        1.21244        1.02917        1.0209
  7133       -1.72559        1.18162        1.02422        1.0316
  7133.5       -1.68429        1.14734        1.0194        1.04235
  7134       -1.64357        1.11244        1.01404        1.05299
  7134.5       -1.60509        1.07874        1.00496        1.06402
  7135       -1.56892        1.04658       0.999411        1.07241
  7135.5       -1.53746        1.01813       0.994385        1.08009
  7136       -1.50993       0.992766       0.992483        1.08496
  7136.5       -1.48598       0.970599       0.98893        1.08899
  7137       -1.46505       0.951255       0.98637        1.09114
  7137.5       -1.44702       0.934646       0.98638        1.0934
  7138       -1.43172       0.920594       0.986746        1.0939
  7138.5       -1.41873       0.908868       0.989066        1.09414
  7139       -1.40731       0.898816       0.990226        1.0934
  7139.5       -1.39704       0.889884       0.991386        1.09118
  7140       -1.38671       0.881229       0.992546        1.08898